# wavelength [nm] 	 shutter speed [ms]
5.000000000000000000e+02 7.713240000000019791e+03
5.100000000000000000e+02 5.336339999999981956e+03
5.200000000000000000e+02 5.143679999999993015e+03
5.300000000000000000e+02 4.379879999999990105e+03
5.400000000000000000e+02 4.249350000000025830e+03
5.500000000000000000e+02 3.649139999999997599e+03
5.600000000000000000e+02 3.392640000000013970e+03
5.700000000000000000e+02 3.180600000000013097e+03
5.800000000000000000e+02 2.724030000000004293e+03
5.900000000000000000e+02 2.509139999999987594e+03
6.000000000000000000e+02 2.367780000000003383e+03
6.100000000000000000e+02 2.253210000000003220e+03
6.200000000000000000e+02 1.949399999999986903e+03
6.300000000000000000e+02 1.656990000000009331e+03
6.400000000000000000e+02 1.410750000000005002e+03
6.500000000000000000e+02 1.425569999999993342e+03
6.600000000000000000e+02 1.159949999999995498e+03
6.700000000000000000e+02 1.075589999999995825e+03
6.800000000000000000e+02 8.595599999999985812e+02
6.900000000000000000e+02 8.464500000000055024e+02
7.000000000000000000e+02 6.982500000000000000e+02
7.100000000000000000e+02 2.226419999999990978e+03
7.200000000000000000e+02 2.176829999999985375e+03
7.300000000000000000e+02 2.513699999999989814e+03
7.400000000000000000e+02 2.995920000000009168e+03
7.500000000000000000e+02 3.377250000000015007e+03
7.600000000000000000e+02 3.898799999999973807e+03
7.700000000000000000e+02 4.871790000000033615e+03
7.800000000000000000e+02 6.627389999999977590e+03
7.900000000000000000e+02 6.496859999999964202e+03
8.000000000000000000e+02 7.636859999999942374e+03
8.100000000000000000e+02 1.168101000000006024e+04
8.200000000000000000e+02 1.144503000000005522e+04
8.300000000000000000e+02 2.190510000000002037e+04
8.400000000000000000e+02 5.757569999999963329e+04
8.500000000000000000e+02 1.231239900000003399e+05
